{
  "name": "先進医療（薬物・生物製剤・再生医療等製品）",
  "domain": "EC",
  "status": "draft",
  "uuid": "adafbaa0-2ee6-49cf-8f08-a074fa127ef5",
  "fieldItems": [
    {
      "type": "FieldItem::Assigned",
      "fieldType": "text",
      "cdiscVariableSuffix": "SPID",
      "label": "テンプレート識別子",
      "defaultValue": "AMCPR1A",
      "isInvisible": true,
      "description": "--SPID（Sponsor-Defined Identifier）。本『先進医療実績報告』JASPEHR テンプレート由来であることを全ドメイン共通で示す provenance タグ（複数テンプレートが同居しても、どのフォーム由来のレコードかを区別できる）。標準 Identifier 変数のため全ドメインで使用可・CT不要。本フォームは1患者1先進医療のため RELREC は不要。",
      "uuid": "97328c78-e79f-4aaa-b4fd-21d2036de990"
    },
    {
      "type": "FieldItem::Assigned",
      "fieldType": "text",
      "cdiscVariableSuffix": "TRT",
      "label": "先進医療名",
      "defaultValue": "",
      "isInvisible": true,
      "description": "EC レコードの topic 変数（ECTRT）。1 実績報告 = 1 先進医療のため試験構築時に固定値を設定する。薬物・生物製剤・再生医療等製品の投与ベースの先進医療に使用。下流で WHODrug/IDF への ECDECOD マッピングを想定。",
      "uuid": "a142ce57-7f69-4272-9597-645cd9c023fd"
    },
    {
      "type": "FieldItem::Article",
      "fieldType": "date",
      "cdiscVariableSuffix": "STDTC",
      "label": "初回実施日",
      "defaultValue": "",
      "description": "先進医療（薬物等）を初めて投与した年月日 = ECSTDTC。RWD・観察モード：観測日として写像。未来日付禁止は pre_defined_validators で自動付与（手設定不要）。条件付き必須は RWD のため非適用。",
      "validators": {},
      "uuid": "71ecf518-e159-4540-be6b-3569ad8df75f"
    },
    {
      "type": "FieldItem::Article",
      "fieldType": "text",
      "cdiscVariableSuffix": "DOSTOT",
      "label": "実施回数（回）",
      "defaultValue": "",
      "description": "ECDOSTOT に実施回数（期間内の総投与回数・整数）を格納。SDTM 標準に回数変数がなく SUPP 不使用方針のため、Interventions の用量総量変数 --DOSTOT を回数に転用（ユーザー方針：PR/EC ドメイン内に格納）。EC は曝露＝dosing するため --DOSTOT/--DOSU は正規修飾子。",
      "validators": {
        "numericality": {
          "only_integer": true,
          "greater_than_or_equal_to": 1
        }
      },
      "uuid": "c2e3d43b-6239-4f61-8aa6-6966b8cf31f6"
    },
    {
      "type": "FieldItem::Assigned",
      "fieldType": "text",
      "cdiscVariableSuffix": "DOSU",
      "label": "実施回数の単位",
      "defaultValue": "APPLICATION",
      "isInvisible": true,
      "description": "ECDOSU。回数の単位として UNIT CT の標準語 APPLICATION（Application Unit）を固定。CT 実在確認済（C71620 v2025-09-26・c-code C25397）＝is_tbc 回避。",
      "controlledTerminology": {
        "name": "ECDOSU",
        "series": "C71620",
        "codelistName": "UNIT",
        "version": "2025-09-26",
        "canonical": "https://cdisc.org/terminology/nci/valueset/C71620|2025-09-26",
        "submissionValue": "APPLICATION",
        "display": "Application Unit"
      },
      "uuid": "de4a218c-e30b-44bf-b81d-18e34024f602"
    }
  ]
}
